time_bin,gyro_X (rad/s),gyro_Y (rad/s),gyro_Z (rad/s),linacc_X (m/s^2),linacc_Y (m/s^2),linacc_Z (m/s^2),accel_X (m/s^2),accel_Y (m/s^2),accel_Z (m/s^2),orient_w,orient_x,orient_y,orient_z,orient_Direct (°),orient_Yaw (°),orient_Pitch (°),orient_Roll (°),pressure_X (hPa),exercise_class,exercise_type,session
-2.0,,,,,,,,,,,,,,,,,,1018.634186,2,Squat,4
0.0,-0.206709207247764,-0.22831492257889302,0.4565718467511,-0.19618561994174002,-0.021278467988670006,0.023540048196793912,5.6850753496558415,5.0115190865247525,4.313219722306931,0.3253080838465,0.4683337271015,0.15451198188475002,0.777761842166,141.8426807365,46.3089497932,-40.587102360170505,118.8472597775,1018.633919,2,Squat,4
2.0,-0.043637592822932,-0.018149862929020003,0.04370991397195,0.19014646534085,0.0932253619186,0.21829500821890002,8.28331575618,2.34491272890569,5.33233585052,0.24445637271840795,0.4898355888487562,-0.00565691142488388,0.835792125219403,151.68343191940298,23.58821736875622,-55.230312648109454,135.03411988706466,1018.6557513333333,2,Squat,4
4.0,-0.021974718965361996,-0.008234530675989999,0.04294539651619,0.10022632831832,0.20150587458785002,0.11940579203062,8.060247045742575,2.1373711553524752,5.461730885980198,0.23100470465671644,0.4763826495686567,-0.013268688986202488,0.8465526960318408,153.26180861393036,19.489983378567164,-54.21616841129353,139.58092591194028,1018.6701965,2,Squat,4
6.0,-0.01574279537343,0.02893347687556,-0.008343552294720004,0.05602180479389998,0.09291117206058001,0.1159736606151,7.96636785272,1.425767102025,5.71109920811,0.22241780576119405,0.4614153528432836,-0.039354102711781094,0.8568599433149254,154.28202128258707,13.313116882044776,-53.87887869358209,144.21571564129354,1018.672256,2,Squat,4
8.0,-0.02185401682277,0.02501907191822,0.047011434127144494,0.01564843547048,0.31009506754535,-0.0516491633736,7.930312790099009,2.235976006539505,5.211995263445545,0.2240523606731343,0.47823253099601987,-0.009377410270259701,0.8453482887129353,154.07860466815922,20.257441488512875,-53.81780563199005,139.7383187079602,1018.6647035,2,Squat,4
10.0,-0.01887916025996,0.037793995339899994,-0.0338937173343,0.0950057294855,0.272468919879798,0.07994504440972001,7.84734286659,1.7450187148903,5.761659567310001,0.23930050712238807,0.4542480190910448,-0.039888564433898606,0.854737577841791,152.27339062139305,13.793769763467164,-52.471950814875626,142.11564762686567,1018.6570355,2,Squat,4
12.0,0.04884435885356,-0.062883785216788,-0.09546647169899901,0.5031539477129701,0.26319154415211,0.35951018967537,8.437127675138614,1.8328894768316832,5.696524313732673,0.22981234106119403,0.4719117318995025,-0.034478704152210944,0.8478870894751244,153.4033741074627,15.948816818092588,-54.30638371751243,141.40317280099504,1018.651924,2,Squat,4
14.0,0.00030273927902999963,-0.022728961122650004,-0.02180383009083,0.0437466046058,0.09344557688519999,0.08271438808407999,8.1626546721,2.0162711425634,5.31472796632,0.24014191809950247,0.4838103966885572,-0.020039130633156668,0.8399254897189055,152.19026562189055,20.093059157054725,-55.22541835368159,137.66329212587064,1018.6506274999999,2,Squat,4
16.0,0.002203145205790001,0.055123266499794994,-0.013602268938689998,-0.04044222027380002,0.12125299384529999,-0.0005405517117799929,7.879802480207921,1.6001294443945446,5.521904269663366,0.22660919944577115,0.4649001449651742,-0.037335766986496516,0.8530369336338309,153.78565310547265,14.097246335231691,-53.91381146870646,143.25308670497512,1018.6492920000001,2,Squat,4
18.0,-0.009391300705663,-0.066455334026082,-0.0568010832458,-0.23599003938819998,0.07834282630766,-0.1799691584533,7.85439470209,1.4946044540386199,5.0918040389499994,0.22223664403383084,0.47741106066915423,-0.0388494394931494,0.846807133519403,154.29295210049753,15.158142313587064,-55.34074806024876,142.53709707363183,1018.648796,2,Squat,4
20.0,0.020688862210391,0.056518989324200006,0.0239570701581,-0.2649140751295,0.03372444850808,-0.17481146401789002,7.877858008821781,1.7792282935171286,4.8705582556534655,0.2477150187950249,0.4895979691109453,-0.039258482206614424,0.8329307599487563,151.2958789641791,18.501026724577113,-56.43030856651742,137.02306506169154,1018.651123,2,Squat,4
22.0,0.0021615300361970003,0.054351952993571005,0.03724245810538,-0.1483438727859,0.1038982876169,-0.10955865403159999,7.619317547550001,2.1240545059332,5.4504013321,0.2444512397164179,0.46381774417512434,-0.011920369050753233,0.8497260774671641,151.68121210646768,19.667543474383084,-52.42222166731343,138.2484160353234,1018.651581,2,Squat,4
24.0,-0.054260451218880006,-0.01592959719279,0.068433447791865,0.2299463396994,0.32981321811967,0.19647923961286,7.590615728435644,2.0399208340862276,6.0941731413366345,0.23708918076517413,0.4381237272641791,-0.019073274999835323,0.8626290823636815,152.5319111049751,15.328751876420123,-49.38207496333333,142.39777589402985,1018.6531829999999,2,Squat,4
26.0,0.02706614109683,-0.04540714254311,0.004675463207980002,0.26552075300854,0.28319214893711,0.2713095491048,7.536357064920001,2.5782026000641003,6.4498384917700005,0.24886998933134327,0.43040444975870645,0.012725229278410846,0.8658814348268657,151.1566030761194,20.27390664373134,-47.598574823084576,139.0671587875622,1018.648224,2,Squat,4
28.0,0.00797415762535,0.023906895835779998,-0.035539031269,0.3497745697248,0.27109873361439996,0.26615751476775,7.931612562415841,2.8160153530549503,5.660138098089108,0.25721360298656715,0.4693655087845771,0.012035562573278862,0.842867240041791,150.1595573721393,24.619933167014924,-51.65265353990049,134.19877795273632,1018.646088,2,Squat,4
30.0,0.02409919888937,0.0191792686945,-0.1211669382268,-0.2933691583556,-0.03715091321165,-0.22899575203992,7.33539995732,2.0024833145209,5.6136698135300005,0.24658636509203982,0.4501967241029851,-0.008436813233942289,0.8549036211218906,151.41237553482586,18.4475683830597,-50.427878496517415,139.4440967880597,1018.646622,2,Squat,4
32.0,-0.06449514846417,0.08625973904642001,0.11816491817522999,0.20459937325728997,0.11155444909329999,0.099524364185221,7.261986739663366,2.7058592752838613,6.320201627524752,0.26605119699950247,0.42566852980049746,0.022423398926689056,0.8624858418935323,149.11870743084577,22.56980754587065,-46.0275754958209,136.01221737412936,1018.645554,2,Squat,4
34.0,0.08619531936870707,0.15891191130192323,-0.007348312051373738,0.06905381544667677,-0.01746064235099697,0.04865511850896667,3.743113185792079,2.8367687308415843,8.644753340871288,0.219071707683,0.224414855883,0.10178124367283999,0.943376126446,154.690258961,18.2888652596,-22.29683777835,150.2787538405,1018.601532,2,Squat,4
36.0,-0.050203766822340005,-0.1984957770831,0.004459101329316999,0.07119528261975601,-0.053299782668218006,0.1304035129719,7.82659451301,1.1875360061519,5.878050032039999,0.19545677772935324,0.4496098642512438,-0.0274171237140398,0.8673683904238806,157.44204617462685,11.759278725074628,-52.661829908009956,149.02780314676616,1018.604546,2,Squat,4
38.0,0.019748091195724002,0.029567029962249997,0.027523973676196998,-0.1527908147937,0.08795814811215001,-0.1301789535515,6.8124048184554455,0.6431783453264357,6.726222648891089,0.19822338294577113,0.3836972543109453,-0.05352254854339801,0.8986509395895522,157.11405845522387,4.4536217589972145,-45.12879937169154,153.33255197313434,1018.6135866666667,2,Squat,4
40.0,0.014423296635798001,0.003273720532630007,0.00632281104971,-0.1071793751915,0.025506928270900005,-0.1183663442258,6.468989666708,1.03729343720755,6.9572143981600005,0.19274992511293532,0.3679501255671642,-0.019492039009928557,0.9082475183452736,157.76316468159203,8.302390481589702,-42.415082561393035,152.81849163383083,1018.6179735000001,2,Squat,4
42.0,-0.03513249049312,-0.029382804714300003,0.05817929249697,0.19646266859851003,0.16250941422946,0.18437090150246999,6.97574040780198,1.4665063249736436,6.982617196584159,0.20468385612288556,0.38642507341791044,-0.014860509560399004,0.8967028027960199,156.3545145044776,10.488395305536963,-44.049235250199004,150.09522397810946,1018.6175539999999,2,Squat,4
44.0,-0.02414557681263,-0.026736427371719995,0.034306698850619995,0.30063659250038,0.1360091958828,0.28408965045532,7.52091667333,1.02692599638204,6.83853369597,0.19922289482935324,0.4052845797074627,-0.03845087514652239,0.8898823875676617,157.00413578457713,7.850946614426865,-47.25881158552239,151.35254588855722,1018.6198425,2,Squat,4
46.0,0.010384878554449998,0.011263255824963996,0.024922180053390003,0.21001775414435997,0.238636837594,-0.05846971239819999,7.6387354649900985,1.5537541002215842,6.068459286831684,0.19842250782985074,0.4292523870447761,-0.02035250020955771,0.8780920129208956,157.08955323383083,12.540491222383851,-49.30877858014925,148.46194760646767,1018.6227035,2,Squat,4
48.0,0.02953138011245,0.02959496212431,-0.11456029487436,0.39103274559,0.3164040533586,0.3692724786849,7.403240382400001,1.8623327591167,6.9102989593699995,0.20278203849999998,0.4039719726218905,-0.0034673198963987065,0.8886443484263681,156.56956611890547,12.741595344454577,-45.5995229580597,149.1279370995025,1018.626785,2,Squat,4
50.0,-0.0012983820850610004,0.0009076912487900038,-0.01983350102212,0.0766022497276,0.19256997168233,0.04767811453479998,6.652664722381188,1.7567305234367325,7.126592550702971,0.22391496079154227,0.37263991606417907,-0.005032307920925871,0.8978492615507462,154.09170507213932,12.217833662278109,-41.856432347263684,147.3570012363184,1018.623161,2,Squat,4
52.0,0.023013646563869998,0.02234899074212,-0.03651895091757,-0.29270782071902,0.0008944657771999953,-0.31689526097151,6.5479699264199995,0.6593099578974599,6.647798831149999,0.18710398225024874,0.3778520709233831,-0.040914297423409955,0.9035463142840796,158.41182270945274,5.145586615357711,-44.02084205696517,154.67499965970148,1018.623276,2,Squat,4
54.0,-0.064983280255568,0.046218023607980004,0.11356055784734,-0.236959314785,-0.06200281352189999,-0.376622346905082,6.210604288871287,0.6735977611115247,6.886171716396039,0.1817544521955224,0.3557928917487562,-0.028892645617232336,0.9146610140338308,159.0394354119403,5.821380606044278,-41.26570230597015,155.3440008228856,1018.6190799999999,2,Squat,4
56.0,0.014292162455232002,0.025074990429207,-0.00950866946894,0.19632140283795999,0.07167834689249998,0.24447193441425,5.740295993025001,0.83852477876953,8.25342142161,0.20142707572139304,0.2999202288537313,-0.022437523782646764,0.9318753647487562,156.75779554477612,5.496475177368159,-34.60459221631841,153.906877180597,1018.6164094999999,2,Squat,4
58.0,-0.00016421445562000175,-0.10601855206648998,0.0387476197829,0.31698089925863,0.13375987872002,0.20380795262124,6.846532364643564,1.1023299702477227,7.380783265455445,0.18513976161194032,0.36388853085771145,-0.018429159025356218,0.9105588898915423,158.64233141144277,7.5643258444111945,-41.9286429139801,154.27392224527364,1018.6135865,2,Squat,4
60.0,0.06365128879389599,0.08657072847478,-0.03823176150295,0.3194435242646,0.23834780904325,0.35792704431575006,7.01054998629,2.0841370147796,7.2003178618799994,0.18558614475472635,0.38481890818358205,0.02481217677543582,0.9016853735547263,158.5962889084577,14.788671512806717,-43.01734403741293,150.98044269751244,1018.61351,2,Squat,4
62.0,0.0355390997958,-0.010769078511800001,-0.08850854219538,0.12151706961610001,0.14901719174859998,-0.0543789126261,6.28098466481188,1.9622412804568892,7.288761753792079,0.18401284221343284,0.3506781776179105,0.028735785321333134,0.9146921582487562,158.7721327965174,13.549874230517412,-38.75012111562189,152.4667197835821,1018.61454,2,Squat,4
64.0,-0.0646692431446,0.014043800542340001,0.02914934676654,-0.43286042264796004,-0.06787968687659,-0.6442345904668,5.23829241484,0.548676521292897,7.26237281801,0.15307236704129354,0.3070389434830846,-0.015482815432518905,0.9374489421044776,162.38162370248756,4.72945439985607,-35.332609399203974,159.83371441940298,1018.61412,2,Squat,4
66.0,-0.017311773344358,0.010067673561629997,0.051001100102103,0.1396364915725,0.17668543542009998,0.06983205694813,6.082417389524752,1.2969475381637623,7.639488354643564,0.17692762368358209,0.33141204692139303,-0.0015248028916303481,0.924974052941791,159.60695386069654,8.319169628109545,-37.654981180099504,155.51812323980099,1018.618393,2,Squat,4
68.0,-0.031946368594984,0.08415262170032,-0.04995699756085,0.38861798877477,0.18473805619340003,0.31334460358849997,5.513748101798,2.0358189925717,8.422602607730001,0.1948651668238806,0.28829771011492533,0.042042117471831245,0.9348202743,157.52148349353234,12.994720596626866,-31.465134823482586,152.7575143432836,1018.618698,2,Squat,4
70.0,0.026882926201568,0.044371953831999995,-0.026296300995219003,0.11304553290899699,-0.0471697152544,0.06829355509307,4.38757203659406,1.3564273146678218,8.780110478178218,0.19278114638756222,0.23479243325870647,0.027533180592050746,0.952073031062189,157.76905019800995,9.122045311955224,-25.884811329104476,155.0292084721393,,2,Squat,4
72.0,-0.08423049405635252,-0.30548795269573736,0.098361218774001,0.06684828853150505,-0.005246237064429298,0.01322374988811111,4.68481238251,2.1660541672190003,7.958485244769999,0.20681347222949997,0.270532821857,0.056167206807299495,0.927868771686,156.125431446,15.13123416769,-29.19725078895,150.813982353,1018.5956189999999,2,Squat,4
74.0,-0.07183850372831001,0.13822635426736002,-0.026945692767067,0.44192154874651995,0.18174954608388302,0.56505540262506,7.349369382871288,1.37349182884801,7.304800677920792,0.20950349921940298,0.3919102122696518,-0.02160874291099851,0.8931464441676616,155.7895454606965,9.96433999661194,-45.29751121238806,149.58366332487563,1018.5960765,2,Squat,4
76.0,0.0611006023904,-0.001633022160670001,0.0009604563383899978,0.03527208877360001,0.28634069898555997,0.0827842125828,6.0029173690599995,1.00351617738971,7.754835237129999,0.1959090248442786,0.3247543426427861,-0.029320439903617063,0.9229666336711443,157.39511284278606,5.136921893206467,-37.50990240343284,154.4077227955224,1018.6058806666666,2,Squat,4
78.0,0.0015033964353000017,-0.024274451121619998,-0.009878665305879998,0.13358172903085,0.12991493023115003,0.015470785378500012,6.2107109976534645,1.351985561248297,7.558789831465346,0.18806634158059704,0.3375418151651741,-0.0013419293935824277,0.9208870660184079,158.31057135721392,9.257362937185075,-38.33538023004975,153.6192012004975,1018.604431,2,Squat,4
80.0,-0.03087624607789,0.01571769673314,-0.07200963159808,-0.067576978824,0.13171006421939999,-0.11910786470290001,6.17516268313,0.7294151733389,7.32553996131,0.19382917433034827,0.341832904019403,-0.03883564940069005,0.9162475000457712,157.6140604960199,4.473347637367662,-39.663428572189055,154.5610591875622,1018.603325,2,Squat,4
82.0,0.040985307517553096,0.05512756083325001,-0.006812944726890004,-0.3980276059406,0.015806261160199998,-0.45606470037915997,5.674663832257426,0.48439714638821785,7.159590762455445,0.19125132430149253,0.32940473495820893,-0.04245042083281553,0.9215009637014925,157.93087037562188,3.224461388569055,-38.38578133786069,155.6171548278607,1018.599701,2,Squat,4
84.0,-0.014477882794910002,-0.08624762589978702,-0.0011362373837199978,-0.045328446026899984,0.35814516025368,-0.07623257120890001,5.3879137756355995,0.9772143722523,7.85954100036,0.19206520500248755,0.2958646446059701,-0.026420851555086763,0.9313306300477612,157.8256881079602,4.453516883287064,-33.7295196260199,155.3514436004975,1018.5990145000001,2,Squat,4
86.0,-0.03802971070290399,0.022979427349050004,0.03491803100672,0.037167300050699986,0.23684010981889997,-0.10878254721219999,5.809992810277228,1.4226075140069305,7.587900582584158,0.20301494419004976,0.32162413452587063,-0.004638636330642786,0.9219476125129353,156.55440571791044,8.947099949281741,-36.18806985273632,152.09371223383084,1018.592682,2,Squat,4
88.0,-0.06173273734386,-0.007241214273140001,0.07218051403221999,0.40997132744299997,0.29287897677339997,0.36513489532727,6.38202950139,1.3349629303102,7.91900185086,0.19933225939900495,0.33181511144228854,-0.014579408061502984,0.9178469423343283,156.97943107512438,7.834764757745771,-37.466593256915424,152.73877832686568,1018.5832215,2,Squat,4
90.0,0.0001485365966900029,0.02243679566875,-0.027983145495791,0.05791613600529998,0.33246188639339996,-0.060517606103570015,5.6446860723762375,1.5148187301513862,7.801281112871287,0.21997300117661692,0.3095840172099502,-0.008442202107290547,0.9215131486462687,154.5539178358209,8.589333731270896,-34.68177995278607,150.37691423283582,1018.5704805,2,Squat,4
92.0,-0.06524893142506,-0.012793327367630005,0.033699002300640005,0.18557784277840003,0.36264642818360004,-0.031756485528039,5.995193431084,1.7003680664199998,7.635085757423,0.22164044058507462,0.32421954460895525,-0.004753046859893035,0.915409996661194,154.3633291766169,10.016218152619404,-36.13689849616915,149.26926043731342,1018.557129,2,Squat,4
94.0,0.047777697336958996,0.05617848537337,-0.007240530253839995,0.20521295087820002,0.35811114271954997,0.06185091161920999,5.916722350108911,1.5189640702326832,7.760106340128712,0.19839568607661692,0.3182703969542289,-0.0038152286840363184,0.923771806538806,157.1014479437811,8.711578821823583,-35.83982111298507,152.79738984477612,1018.5499195,2,Squat,4
96.0,0.09362369027850001,-0.0677861913912304,-0.08063702779306,0.33933838906810004,0.3690561077735,0.37586786890440005,6.083279255700001,1.7697996826296298,8.06118817282,0.1788481114119403,0.3208811757462687,0.015388567373067662,0.9257204869452736,159.38327705323383,10.243530540491394,-35.687309933383084,154.83038154975125,1018.545151,2,Squat,4
98.0,0.0201294705899002,0.012404041146514798,-0.0951670479931,-0.0788250102936,0.1022138038391,-0.21800541911260002,5.57821094170297,1.8756826661689108,7.482703499425742,0.20535803731691543,0.3220746908860696,0.025272524576494027,0.9201631576174129,156.26461703781095,12.640563008328357,-35.20027738666667,150.86765345920398,1018.5466,2,Squat,4
100.0,0.016501159437808003,-0.05359449778036,-0.010529141762290002,-0.17296572612060002,0.1927278979744104,-0.306868052113807,5.78700785516,1.3524540573335,7.21038442841,0.2020692098995025,0.33333736119850743,-0.006991621230616417,0.9166856628736318,156.65855151094527,8.923683434723847,-37.40676708482587,152.08754975771143,1018.5519025000001,2,Squat,4
102.0,-0.114343514367613,0.10326448078394,0.117201598985281,0.15154672904786,0.20064784053047002,0.023539124349529997,5.436455723274258,1.6689832917829703,7.962773011495049,0.2252581135452736,0.29861051605771144,0.00891674285741791,0.9234021797288557,153.94333882338307,10.90733232770995,-32.83710575189055,149.00340855124378,1018.558578,2,Squat,4
104.0,0.02171385401804412,0.05277885261225,-0.008959251198205884,0.09152403313264706,-0.004638359712441176,0.09741647011732853,4.247350198492754,1.2062307606652174,8.893479826507246,0.19851294304014597,0.2263956603642336,0.016903140263363505,0.9534042914802919,157.0999468810219,7.751277746262773,-25.150611866934305,154.7480286678832,,2,Squat,4
