time_bin,gyro_X (rad/s),gyro_Y (rad/s),gyro_Z (rad/s),linacc_X (m/s^2),linacc_Y (m/s^2),linacc_Z (m/s^2),accel_X (m/s^2),accel_Y (m/s^2),accel_Z (m/s^2),orient_w,orient_x,orient_y,orient_z,orient_Direct (°),orient_Yaw (°),orient_Pitch (°),orient_Roll (°),pressure_X (hPa),exercise_class,exercise_type,session
-2.0,,,,,,,,,,,,,,,,,,999.2904663,0,Pushup,1
0.0,0.0876261219285,0.258848025193,-0.082490000317467,0.6197303539949001,0.047556931017750007,-0.014111807668585006,1.6150849777933665,9.134204334178218,3.319720862352475,0.46058019451950005,0.36876399033299995,0.432406220086,0.673776970752,125.0301021895,69.60730363405,-5.833988871689165,107.5631220359,999.28791045,0,Pushup,1
2.0,-0.14278365150371,-0.0993739004949,0.086794213550023,0.20758696629620002,0.01482888389691999,-0.4330511223008,1.16855996702368,9.372684402219999,2.2860446457468,0.1360384084034776,0.15480947851154228,0.5294181688248757,0.7234212113422885,164.24973167761195,74.0281526360199,-5.5359915474335315,156.04529142985075,999.2818196333334,0,Pushup,1
4.0,-0.058152276931160006,-0.11559692244821002,-0.19141476380873002,-0.24686881119829998,-0.026557807926699997,0.28194140099097004,0.1064909272161683,8.800552621980199,4.387978122811881,0.5292768293338308,0.3558158612562189,0.4024640578756219,0.6478824709398009,115.76398295273631,65.00501749064676,-2.0815361074590046,100.22614759955223,999.2785645,0,Pushup,1
6.0,0.21283594443867,-0.11774534304514,-0.17663945099148,-0.03805856198455001,0.03979613221850001,-0.00036907295519999383,-0.6149182708479001,9.25088718084,2.8292380691722,0.6365162755781094,0.456076959840796,0.3745989159278607,0.4757076326905473,100.8356347338806,73.01295730771145,3.1904066756577314,75.79897699328359,999.2897034,0,Pushup,1
8.0,-0.15219869052143,0.7575274548507199,-0.01175701876759,0.4100961961667,-0.013588449687499997,-0.1831714401133,-1.7376681835537329,9.508975982524753,-0.14709955045920795,0.3470576384318408,0.20105571027855723,0.6458770344776119,0.5969213396915423,138.91059870945273,89.71101733208954,12.652555513890547,132.25196801169153,999.3148804,0,Pushup,1
10.0,-0.017184712246430003,-0.11058055566683998,-0.015968439779230004,0.026880897294199988,0.016693777282150005,-0.01535538981357002,-2.5106331115783003,9.45029201647,0.52144963991473,0.20134554473781094,0.012136966108471394,0.68677340589801,0.696927179936816,156.7612606676617,86.78691801935322,15.034623573084577,162.03709941492536,999.3498993000001,0,Pushup,1
12.0,0.30681978827089,0.05136812192962,-0.4577822795407,0.1453508497594,-0.0851723675407,0.005248238582499996,-4.306617115860792,7.859444813989109,-0.24994607606029703,0.294139849219403,-0.030403274482740196,0.7096987007114428,0.6056597165447761,145.47896405024878,95.66723986771144,28.3520170661194,161.4617258447761,999.3667984,0,Pushup,1
14.0,-0.008586623100000003,0.0029867897594500013,0.20239727681330003,-0.14269896058929998,-0.17218573091269998,-0.015691371559580017,-5.081747950815,7.081533874562,-1.1079330413656,0.35163986506119405,-0.009115722113095522,0.7368552069781095,0.5314797369084577,138.4705080129353,103.85156355308459,33.311920825414425,157.78639125920398,999.37358855,0,Pushup,1
16.0,-0.1788763052175,0.12043751753500001,0.2594640549285,-0.1918524299672,-0.19843902164309998,-0.05952073213404001,-5.056490913539406,6.809578517559406,-2.064469784271386,0.3485393334970297,0.02561389204218812,0.7676180941633663,0.4818057011311881,138.8451296950495,110.60510554623762,32.26298603982311,156.6971975920792,999.3825531,0,Pushup,1
18.0,-0.01679758246869999,0.024209520932675,0.2312463671874,-0.11830242024630003,-0.10736883375650001,-0.1444015736521,-5.696056988578,6.498991777024,-2.2545770828439,0.37586289917761195,-0.005015988702119402,0.76893284899801,0.4647365384606965,135.54534374825872,112.47564883820895,36.908049529820396,158.16816932189056,999.3892288,0,Pushup,1
20.0,0.14231806321791,0.002949539643300009,-0.252499497498,-0.08841287394470002,-0.013508831081460051,-0.09551085052896,-5.542023323026931,6.710736535716218,-1.8689985460106862,0.37476563245174127,-0.013471487982786069,0.7588053106333333,0.48644806112587063,135.70078132089552,109.33288150915423,36.73977269614393,157.90588302089552,999.3939972,0,Pushup,1
22.0,0.21740817131425,0.05304410385441001,-0.3360227562032,-0.05810882404529999,-0.12135803704228003,0.011640941903199989,-4.1759755141657005,7.315886535782,-1.3042812332376,0.32612434008855723,0.030612189802462685,0.7378367651417911,0.5323273627288557,141.59900378159205,105.3840975561194,27.7411874297302,157.3912551482587,999.3976593,0,Pushup,1
24.0,-0.025562242134799996,0.03766453474064999,0.12634907321221,-0.08576077577389998,-0.2000933509927,0.02936468356980001,-4.05574326610297,7.642594766138615,-1.3071767614546534,0.31249289509751244,0.039019224191947616,0.7424852651965175,0.5508909875218906,143.3386659681592,102.52055415855722,25.725179106632837,155.45761958855724,999.39983365,0,Pushup,1
26.0,-0.2005039919656,0.009950832033020003,0.36625001337062996,-0.2170427847113,0.013578179054800021,-0.14601347523310998,-4.927353016643,6.988484371984,-1.9116402236932002,0.36182592165323385,0.043774185824873135,0.7550569813945274,0.4835948655069652,137.19809333830847,108.63122924278606,31.832721832689057,153.5092286960199,999.40387725,0,Pushup,1
28.0,0.0761602345069,0.02042868230372999,0.1349723505527,0.10600097776280001,-0.10691672704819999,-0.15287672207671,-5.630582727027624,6.67893286989994,-2.3465915249695346,0.3831355018810946,8.068322244776115e-05,0.7745711213417911,0.467464844018408,134.78129779850747,110.82935843004975,37.16905991502338,155.45963488905474,999.408226,0,Pushup,1
30.0,0.24886844622298,0.0488830851522,-0.37664610951360006,-0.15607138561089998,0.03124978329356,0.008762950953289996,-4.734251113804861,7.248839327449505,-1.5886004487563368,0.343991624739801,0.03896142974960846,0.7484882058109452,0.5055874623422886,139.3983410845771,106.47066161452736,29.964128383244777,154.75861777661692,999.4136429,0,Pushup,1
32.0,0.10157919484412,0.04318546361819999,-0.09520435123177001,-0.022258229379199978,-0.0876486399591,-0.02753021081169999,-3.122991705277,8.18641625993,-1.0536304641676,0.29698109059004973,0.08701686539789552,0.7285316945388061,0.572679355642786,145.21796533432837,99.53402698009951,20.128147878549253,151.57189418557215,999.4181441999999,0,Pushup,1
34.0,-0.32316407138576997,0.05338326015629999,0.53551549313882,-0.09702057840749999,-0.00786019273856001,-0.019216108085359992,-4.733084727374456,7.223284053756435,-1.754611168319109,0.3494566200402985,0.03868840561190497,0.7577521126850746,0.49833767549203983,138.7473300109453,107.06075716298508,30.86033437486607,153.86501971840795,999.4190216,0,Pushup,1
36.0,0.15568774483733,0.031117498237500003,-0.26660874984702,-0.002546602349999996,0.05397860054211,-0.12782255672020001,-5.26100019359,7.492653945649501,-1.645842453013,0.343017210978607,-0.026410970871158703,0.7507158987761194,0.5344031876139304,139.7273512199005,103.80802599039801,33.55343847694577,158.7462465870647,999.4196701000001,0,Pushup,1
38.0,0.2074757497453,-0.026505092983099995,-0.2402163120966,0.004968343897999983,-0.08273284778423,0.0457468717334,-3.2409534719319804,8.048546130465347,-0.5562921943190099,0.2911930038766169,0.06367324927119876,0.7124934874885572,0.592560775221393,145.86972005024876,97.05316646442786,20.73087086269229,154.0918534920398,999.42195895,0,Pushup,1
40.0,-0.24043741254406,0.09433848417338402,0.398919192939509,-0.12647462803051998,-0.146962608432,0.016707606323000015,-2.3876698150966003,8.56970470726,0.24838897244729996,0.2745919575955224,0.10742645314622835,0.6796122657402985,0.6381504985562189,147.90092148507463,90.40815912855722,14.390583807405969,150.1762792915423,999.4258881,0,Pushup,1
42.0,-0.031241690620799997,0.03152158417440001,0.1806627100396,0.0029467847581000272,0.033566654843699986,-0.04143487028883002,-4.696282050927416,7.677993925475247,-1.2374603513376237,0.33061891427975126,-0.005899465698985074,0.7400453939945274,0.5494574554149253,141.13112334577113,101.161012349403,30.867115900798506,157.27869546965175,999.4295883,0,Pushup,1
44.0,0.2615322263442,-0.0320258663596,-0.3527331760139,-0.0674080783333,0.03334474422339998,-0.07538488575669,-5.765705653390699,6.9027052505799995,-1.5002567001515001,0.35316311835094527,-0.05800990248429055,0.7466371354134329,0.5206995280432836,138.36800951791045,105.14500715507462,37.36652293722293,161.89598101393034,999.4320297500001,0,Pushup,1
46.0,0.03495873523270001,0.1083027063047,-0.014872097550868001,0.03339036984910001,-0.2250123948361,0.09576613870156998,-1.7712414369379208,8.989178194792078,0.8767120165156436,0.24022440726616914,0.09451748578431343,0.6636961323726368,0.6858399975412935,152.11037787860698,85.69100984129354,11.129908753022352,152.82345393482586,999.4319153,0,Pushup,1
48.0,-0.18173500680680998,-0.021291722242740008,0.4321397668517,-0.1404887686144,0.1190518951444,-0.15253215587650001,-4.656423916526,7.63652576291,-1.3738864883663,0.3288268558119403,0.008896076433212935,0.7375831545542288,0.5476513912915423,141.36034192935324,101.62796815407961,29.420935602382087,156.60856760895524,999.42897795,0,Pushup,1
50.0,0.2183012043486,0.05925068805705,-0.35664742966491,0.011140233955000021,0.07301263233411999,0.020948086405700006,-4.973515936242574,7.67642145280198,-0.9830250957227722,0.33283286147512436,-0.02066862610717413,0.7327621072925373,0.5606304234094527,140.9047982691542,99.42387492935323,31.77637908590099,157.8135228597015,999.42642215,0,Pushup,1
52.0,-0.15728730196997,-0.11384474091446001,0.388347500326314,-0.010834452041749971,-0.091137574168,0.0526417238637,0.18627713473499996,9.31350496668,1.22010827179,0.19146382797920397,0.17823080911488606,0.6302248035850746,0.7176579870084576,157.8729563164179,83.1979721159204,-0.8823754906809452,150.19913233383085,999.4248580999999,0,Pushup,1
54.0,0.025501621095470002,0.05433030711040401,-0.10558144030809,-0.027667825894699995,0.0061861845909199995,-0.1759814348476,0.06579930822986634,9.741660429732674,-0.4044352103009901,0.23023188851094525,0.24377278428109456,0.6713197969169155,0.6570882013223881,153.35995422238807,91.37225891557213,-0.5215304333675622,140.88575735671643,999.4230652,0,Pushup,1
56.0,-0.350616188035763,0.22019284379727,0.16500239345252599,-0.0712725560498,-0.115800667860438,0.04949155541284,0.8291692336936001,7.038043313619999,6.304074609355999,0.05298433900206318,0.05646709093807164,0.04787765526169154,-0.07036232212885572,173.918296420398,49.21710929283582,-5.330791107884079,7.279100444278607,999.4193268,0,Pushup,1
58.0,0.04244997341074,-0.004226050200980002,-0.017493518635686,0.05472491177891001,0.05974185017144,0.03721291417592,0.2546101394615842,6.992515919049505,6.968896224485149,0.013097725118019056,0.005437665668439303,-0.036151236468656714,-0.09785864029502486,178.49892891044777,44.980816703781095,-1.185547687160199,-9.018040007462686,999.3870544,0,Pushup,1
60.0,0.04433423176970707,-0.2372267429369091,-0.32433357322417883,-0.09218658153846464,-0.09777998105828284,0.158597095507798,-0.013611195378190005,7.534661091589999,6.28641134033,0.1241816350350505,0.038874220850904,0.19391436181,0.39885810900850005,165.704684788,51.22533891925,-0.4240029103584,76.59228195700001,999.3886185,0,Pushup,1
62.0,0.14209415339286,0.08492211587657,-0.15024814360823002,0.14591443181403,-0.2879207286462,0.34211580481354,-1.1807075772248516,8.857723338940595,3.3120170804872275,0.24047530658955224,0.09066000050771991,0.5780035770472637,0.768347898021393,152.15262755820896,72.0676361823383,7.940616941323383,151.29557220995025,999.4357299666667,0,Pushup,1
64.0,0.08572972996981999,0.05848546888854,0.004002452774819999,-0.026429069803689996,0.2386499553612,-0.17728921088062002,-2.9309770018819,9.56682468589,0.29224926450492,0.20308566314228857,-0.012775069289794827,0.6885561906437812,0.6953507414402985,156.56303254527364,86.97705445000001,17.30223736636816,163.87516999203982,999.4697571,0,Pushup,1
66.0,0.2527459317146,-0.025050975703479986,-0.34046125372511,0.050933236147399995,-0.11489222396064999,0.2649949501529,-3.3632965828237626,8.800933513019801,0.5380005291033663,0.23118967105074625,-0.0196789559316194,0.6932090489124377,0.6713036998402985,153.17781351691542,89.1154332638806,20.65094930696517,163.0659834049751,999.49302675,0,Pushup,1
68.0,-0.07262570459480001,0.047365297434720004,0.2297760494853,-0.21051851040739997,-0.2736319199025,-0.06506336170079999,-4.5643159560582,7.380903831664,-0.6545902725254998,0.3278210479258707,-0.00016571721644776071,0.7153405752507462,0.5716064211373134,141.4275421920398,99.23640258174129,29.158224107885573,157.86792348557213,999.5127869,0,Pushup,1
70.0,0.07439896929560001,0.06491266345357001,0.0650350956701,-0.16200796793930003,-0.15045525562483003,0.12600238576492997,-5.685460687118119,6.537351053120792,-0.9316181356841584,0.3836933615835821,-0.03408061333170547,0.7276076367303482,0.5185314642666666,134.64092243830845,104.88864389024876,37.53877343847264,122.60298279950248,999.5307541,0,Pushup,1
72.0,-0.010336278992299996,-0.068438867603,0.18299369506990001,-0.27956246552400005,-0.1309099666354,-0.12671671779010002,-5.72136486074863,6.1653281342089,-1.1661424942114,0.39877327395472634,-0.02418034933293433,0.7230885403985075,0.4912868307238806,132.6296554437811,109.72012869044775,38.48399726727736,90.53741078358209,999.55589295,0,Pushup,1
74.0,-0.027721127735600003,0.11220327288039998,0.172590461769,-0.16320756509159998,-0.1574947170995,-0.04654058442161,-6.069459681887128,5.854321420557287,-1.4059061061686138,0.41657050533930345,-0.013545982432184078,0.741040413360199,0.4552527884179105,130.31974562736318,112.36551436597014,41.19158779668348,118.46585994278607,999.5752716,0,Pushup,1
76.0,0.08913800682170998,-0.005361473163127997,0.049945309473399986,-0.12404307516209999,-0.17331529309149998,-0.08885475663817001,-5.482225154087001,6.815040051143,-1.1142259552057,0.3775449435950249,-0.025286427847064676,0.7266863689,0.5290993190189055,135.44620155820894,102.88825476855722,36.02463565525274,151.45799664029852,999.57473755,0,Pushup,1
78.0,0.20227552570813,0.07470854542317501,-0.26341955424049,-0.0856717490304,0.03708735987020001,-0.09029513470112999,-5.797493061034654,6.565931224447525,-1.4072488584443763,0.3967248521721393,-0.021178528849358707,0.7397656865388059,0.48926797090845775,132.95546623781095,107.12141509233831,38.84837307897364,145.9157187487562,999.5600128,0,Pushup,1
80.0,0.17393297719696998,0.0697866074284,-0.312180961220813,-0.07870947258547,-0.133381475098,0.0804118236673,-4.68266135555544,6.691763905330999,-0.4059588043412001,0.3703298527288557,0.005903914811417911,0.7002994092577115,0.5396207173368159,136.172434219403,103.2815823139801,32.18320902733721,112.7696696238806,999.5514679,0,Pushup,1
82.0,-0.29764041499382,-0.00782704074369999,0.4942462015248,-0.045054351449900006,-0.1154453120733,-0.0031912155643199895,-3.507442374651782,8.138236351473267,0.018850404320792075,0.2873888829885572,0.026591787979539802,0.6962557918592039,0.6204012308139303,146.3270034313433,93.32965123273632,22.537338772718957,156.94277438457712,999.5488739,0,Pushup,1
84.0,0.03704261221466,-0.008927230927462998,0.07073984831039999,-0.06630250869879999,-0.10372266796035,-0.007948404530100005,-5.915929444358009,6.749333994710891,-0.9240492218355445,0.3869838000228855,-0.05645005223234825,0.7258367512333332,0.5318748847472636,134.26753539253733,101.34051066373134,39.54557188135821,157.58782109502488,999.55165865,0,Pushup,1
86.0,0.31123827578048,0.12655575790468002,-0.45561331530419996,-0.084382567114,-0.027671065122779996,-0.01373999344577,-6.0123223115152,6.0816401642899995,-1.0945463791154,0.3898848765238806,-0.05719620022295522,0.7265471733746268,0.4979629698557214,133.7221250681592,107.63736879626866,40.65298962859701,161.91342927114428,999.5571899500001,0,Pushup,1
88.0,-0.23161905710322,0.018697603140469993,0.40531326713482996,-0.012988875651800003,-0.0549594767938,0.03250666806418,-2.9299773777086138,8.666581216782179,0.43370454238964357,0.3022355281393035,0.08359407548100149,0.6809146370651742,0.6358827243706467,144.6374418482587,89.39189560542289,18.445208949827013,149.18837523383084,999.5573044,0,Pushup,1
90.0,0.10083997330299999,0.0608020533943,-0.100939835624,-0.05031809443563999,-0.014334475482699989,-0.033570886023730005,-7.03916597907,6.06778048558,-1.6921606338407,0.41512511199950247,-0.09970550491995946,0.7522637330860696,0.477867118740796,130.8037711164179,108.4354795640796,46.87575005288557,161.43529426268657,999.54853055,0,Pushup,1
92.0,0.190271275056,0.02759799450845,-0.2451834333903,-0.030747876591799988,-0.080023973067705,-0.07684787484926002,-4.042502483696733,7.884180504956436,-0.04358164872801981,0.31589878833681595,0.01264614281671642,0.6906719883388059,0.6127250159373134,142.93030442835823,92.75677931159204,25.82951904480827,155.43126422487563,999.53502655,0,Pushup,1
94.0,-0.15683726583602,0.06104139833579999,0.35614604758721,-0.08236507452009999,-0.06479796677846,0.052944398740529995,-3.1134640181660593,8.557050022890001,0.9007623550266299,0.3080471497427861,0.06884756082954228,0.665673114177612,0.6504662630373135,143.9077343875622,86.35464884756219,19.486484507499654,149.19283711940298,999.5227432500001,0,Pushup,1
96.0,0.09531083385169,-0.017319391230443997,-0.013375013205809997,-0.006914735982799991,-0.0001556353681000111,-0.0452662480246477,-6.871761583158416,6.309508517441386,-1.3743736584237722,0.41294958559054723,-0.10429838864708557,0.7415047670985074,0.4980977972800995,131.1081813681592,105.31735200786069,46.456056585174125,157.0561990646766,999.5168304,0,Pushup,1
98.0,-0.04357480256163,0.003604872342000003,0.06568352924001,0.017507883660910023,0.011718135913000005,0.056932813760400006,-2.018544914237,9.37657630917,1.5814074463099999,0.2841346977716418,0.109433056689801,0.6391746733900497,0.70245570330398,146.96799738208955,80.98544831895522,12.162109555388543,146.54360772487564,999.51122285,0,Pushup,1
100.0,0.13477668131592,0.11426421440267,-0.28804255860975997,-0.053519079536200005,-0.040674003900305004,-0.015163523693759996,-6.836312033891089,6.1212193736534655,-1.299429999601089,0.40932432375771144,-0.10613785660458706,0.7348867244716417,0.5022335094537314,131.54562573880597,105.1750209634826,45.95677425621891,161.5264516154229,999.5057678000001,0,Pushup,1
102.0,-0.034666330600250005,-0.19818756851909,0.38653718494975403,-0.0416169490407,-0.02930718041239999,0.057956519256799996,-2.0369715958162002,9.16680552969,-0.3811434082312,0.24123173637064677,0.10044624438487414,0.7046934161572139,0.64074307080597,151.99851483830847,93.15526276796021,12.604986639444379,152.2757586751244,999.4951248,0,Pushup,1
104.0,-0.22279167095207,0.12321741867849001,-0.0068480262386960014,0.010937753714560003,-0.013152493002629,0.021051495540220008,-1.0144434243311882,9.547933583821782,1.2281277782878217,0.243385650379602,0.15373323371671643,0.6403782562268656,0.704834197740796,151.82157758159204,82.95531367064677,6.006728542631841,146.64442217213931,999.4891357,0,Pushup,1
106.0,-0.0020094992555232324,0.004963127917918183,-0.004376300274084848,0.018346986477171718,0.026981096590060604,0.0506357683080404,-1.260302687074,9.333434523,2.8800154770099997,0.21868650940497514,0.0832554359337811,0.5907632465915422,0.7721436184582089,154.73614873631843,73.10939266134328,7.459402743920398,153.90712881542288,999.4298553,0,Pushup,1
108.0,0.09717007317013131,-0.13602652051566666,-0.1878174144560606,0.06773391337470708,-0.04839800639075758,0.1347542408900606,-0.31365270632960396,7.129184685148515,6.778284682405941,0.14460886022085,0.043654905107750004,0.39810226280949995,0.9018452543365,163.33619791450002,47.2221004867,2.2632189993166,162.70636615,999.43302155,0,Pushup,1
110.0,0.176341361274653,0.01777982911126,-0.038063929602601,0.221769786979165,-0.20605689117916,0.2355755127402,-0.417192942811243,8.400713625969999,4.76462042081,0.29170615898606966,0.13964387529502487,0.49645843374975124,0.8032854457930347,146.07558760597013,62.17215859606965,3.723969950102985,142.36657876965174,999.4297282000001,0,Pushup,1
112.0,0.10505520276209801,-0.28843339367215004,-0.10841051515458,0.019612272464491,0.016371531418499997,0.03146623263830001,-2.1419952029851483,9.263265652821783,2.4512372792594057,0.4349779665039801,0.2129793315744776,0.5684546956268657,0.6437251746601991,127.9203569597015,75.27474051248757,12.75003970142786,122.00637099751243,999.42108155,0,Pushup,1
114.0,-0.07298355572565,0.22057803421286998,-0.061450061529409995,0.34634983579281,0.31198913712602,-0.08250340009686999,-1.4593602447468002,9.73839490381,1.728232621745,0.385969382061194,0.21028672176462687,0.6010624578721393,0.6649350029213931,134.56729819800995,79.10466382323382,10.705475921781096,128.5233623084577,999.4100189,0,Pushup,1
116.0,-0.024168261585102,0.25277301695761,0.11549585305320001,-0.0033107490361000058,-0.3296171065281,0.22626106335319998,-2.366774307050495,8.823829959148515,2.7329455233854456,0.2574268673537313,0.04667435240905472,0.6069817632084578,0.7438103738039801,150.02599380597016,74.58083187960199,13.979612953686567,152.56434614129356,999.4128799499999,0,Pushup,1
118.0,0.029206500411152997,-0.04934379173130001,0.0071165604001299995,0.014669029786239993,0.21074486124122999,0.002195169563154995,-2.5659951736873268,9.6123975500099,0.7692281046965346,0.1841621664004975,-0.009710580636591791,0.6784929336681592,0.7102647434756219,158.77165382437812,85.37612661626865,15.266571797562188,165.0677703925373,999.43271635,0,Pushup,1
120.0,-0.029767040713399,0.019643024847019998,0.01859570420398,-0.0020288800396000405,-0.02516726396476002,0.031009818710332992,-2.570242154002,9.36645585478,1.36208952027918,0.2200247602278607,0.020939778276436817,0.6570987289119403,0.7202105880303483,154.57741835124378,81.9740439778607,15.029829070746269,159.09715761293532,999.4670486499999,0,Pushup,1
122.0,0.0553907243864604,-0.0725861191341,-0.039398282468429906,0.15821361032569997,0.0631778260982,0.13826119946415,-2.480564412060792,9.248030008772277,1.9453249729314852,0.24845414136915422,0.03418813738375423,0.6364036058552238,0.7282573168771144,151.2159489800995,78.84071816308457,15.47585152069652,155.0637630995025,999.48013305,0,Pushup,1
124.0,0.11142726079481001,0.08222488079630001,-0.2444737475430501,-0.022917436692980013,-0.14424821399472,0.16260374843777,-3.131763464353,9.017381758239999,1.20203335876522,0.28707647687014926,0.0436531762478806,0.665129448976617,0.6841706525328358,146.6229788114428,83.84384024323383,18.8084989259204,151.7434844034826,999.4811249,0,Pushup,1
126.0,0.13401218310231,0.04587583432373001,-0.00681461652289999,-0.13195128044659998,-0.13809553101962,-0.0813502183859,-5.690452287196039,6.8683261530386135,-1.0314531020577227,0.37859554482636815,-0.029209346735309952,0.728680333677612,0.5272908490870647,135.25124935870645,102.27807162139302,36.94083119855174,156.51917242238807,999.4757079999999,0,Pushup,1
128.0,0.044339540727540004,0.06033751108984,-0.000943458968869999,-0.22772907188320005,-0.07427173959093,-0.029974924410920013,-5.427992930623,6.906477406148,-1.1324535507407,0.3698738345149254,-0.011899097158700994,0.7337880412671641,0.5235792814467661,136.26659950995025,103.15846482830847,35.17915243318827,156.01917181293533,999.46811675,0,Pushup,1
130.0,-0.1056094237057,0.0704892150524,0.29022098172889,-0.2382444933253,-0.2146269797163,-0.10605583856440001,-5.6470944303711885,6.450536041148514,-0.9763543141912872,0.3981041094452736,-0.00999588470929154,0.7256258364547264,0.5038331910268656,132.74729643084578,105.5178858777612,37.634487614955226,155.75430997412937,999.4608307,0,Pushup,1
132.0,0.06558070433065,-0.03235593835308101,0.13296093082190003,-0.11548781419979999,-0.1264215298941,-0.04871806965771901,-5.7207002426910005,6.616721955989,-0.9606333526542999,0.39735019106169156,-0.02210445044916418,0.7206016264940299,0.518227606879602,132.92589523731343,102.81828068099502,37.85694434090328,155.0612563283582,999.46178435,0,Pushup,1
134.0,-0.014315271311679999,-0.062314168930929996,0.210893041535,-0.1466038693959,-0.05674802021080001,-0.12103758648086103,-5.9207313400168315,6.49286089759396,-1.1474381474554456,0.41436684439701493,-0.026848705366519402,0.7288672084517414,0.4970217719442786,130.76920382238805,104.15208506646766,40.61599916816766,154.1578715766169,999.4742203000001,0,Pushup,1
136.0,0.112703373895902,0.05975856486733001,-0.1416833167523,-0.030830509390879994,-0.04305382360039999,-0.069898840173628,-5.4081756408203,7.18226989292,-0.6307553375277,0.39071901756336636,0.006513475840135644,0.7139292494529703,0.5403493096915841,133.75062747821784,97.82984915321782,34.70116346203465,150.3275495950495,999.4927216,0,Pushup,1
138.0,0.12415826319179998,0.14428438189800002,-0.2402367928939,-0.14385379006030002,-0.024933477705099998,0.013824698394800005,-5.175170356213862,6.84434779869604,-0.49295015240168316,0.3665385657870647,-0.02213225541674627,0.7044144189059702,0.5493195124751243,136.64555718258705,99.76956578179106,34.40825571266269,157.1704088487562,999.50660705,0,Pushup,1
140.0,0.12468672083099999,0.008283512031960994,-0.1472992597842,-0.05867232950370901,-0.11693565917310002,-0.007083971122100002,-4.6066060133585,7.61315186916,-0.1832998260414,0.3461959325970149,-9.359642915422912e-06,0.6993316491522389,0.5887939937771145,139.27927206019902,94.48077631840796,29.908213159821642,154.06933332885572,999.51423645,0,Pushup,1
142.0,-0.221054846152719,-0.012083423693792995,0.43871214210167,-0.042108350410300005,-0.0399005780684,0.010105084086393008,-2.7674554428389686,8.496128743920792,0.7723878705775248,0.29460254370646766,0.07557366933720348,0.6629761525442787,0.6522026351746268,145.5082288751244,87.02051543487562,17.75594312631807,150.4492651562189,999.51236725,0,Pushup,1
144.0,0.09785137032758,0.09510878713290999,-0.09571123341189999,-0.08077803587535999,-0.06525140374800001,-0.0772427100513,-6.072474723811,6.9355738998200005,-1.0271146042267,0.37263449714278607,-0.07258756543539154,0.7284242644228857,0.5433208170467662,136.10391428159204,100.79220545756219,39.243041910248756,159.71623443134328,999.5018005,0,Pushup,1
146.0,0.1118624194448,0.077261531561595,-0.266541569439324,0.0441490869321,-0.09546881732180001,0.11515895527610001,-2.0696006986439603,8.97741206850495,1.0419505793160397,0.23588592683333334,0.06533369807144278,0.6608580790278608,0.6934505231905472,152.61936911840797,85.00725431830845,12.992336205866517,155.4426819278607,999.4927216,0,Pushup,1
148.0,-0.21066503619302998,-0.09264729454546,0.45786871957604,-0.15801857972599997,0.03828479067670001,-0.09578351368909999,-4.7890990172407,7.625799069119999,-0.297394065921,0.33493469720099506,-0.02002080325282438,0.6981812219845772,0.5929101590746269,140.6368109636816,94.71124962268657,30.479410664635175,157.06078400845772,999.4934082,0,Pushup,1
150.0,0.33778437407268896,0.030426799071000002,-0.38137359912246,0.06393264863530002,-0.090437583476565,0.09920209269638,-6.1424840644653464,6.7136295296031685,-0.8565766604386139,0.41887585756915424,-0.01979840031051393,0.7334774123860697,0.5018922606074627,130.20984530149255,100.20619867472638,40.96813839254776,149.8583799129353,999.5013809,0,Pushup,1
152.0,-0.3638940310981,0.033281466940190005,0.3471195210909,-0.07887802186419997,-0.03538883427818998,-0.17663542265122,-3.6971078247256997,8.45242509165,0.5744993224821,0.326972384902985,0.05260116208057523,0.6719682517621891,0.6369716375606965,141.66818332288557,86.91018251238808,22.799965483323383,148.85002831442785,999.50374605,0,Pushup,1
154.0,-0.13869957839038802,-0.06442453101609,0.056544358434188,-0.04347350778757,-0.014102197760083002,0.1329736215293,-0.5388319683869307,7.740557882485148,5.988599613287128,0.21377805849353232,0.07854795461405473,0.43802044923880595,0.8670903348776119,155.30791094577114,52.952002097363184,2.9116973696125275,153.7943618910448,999.5040131,0,Pushup,1
156.0,0.0006248691220382049,-0.024562217429811538,0.02389463414695641,0.02932122553197436,0.055836853915303845,0.061271406067641025,1.3330202777371793,7.8105098841794875,5.917419662448718,0.18468102400961536,0.16400564762756412,0.4176678990564102,0.8743350926923077,158.7148731852564,52.94684441891026,-7.615842883070513,152.348577925,,0,Pushup,1
