time_bin,gyro_X (rad/s),gyro_Y (rad/s),gyro_Z (rad/s),linacc_X (m/s^2),linacc_Y (m/s^2),linacc_Z (m/s^2),accel_X (m/s^2),accel_Y (m/s^2),accel_Z (m/s^2),orient_w,orient_x,orient_y,orient_z,orient_Direct (°),orient_Yaw (°),orient_Pitch (°),orient_Roll (°),pressure_X (hPa),exercise_class,exercise_type,session
-2.0,,,,,,,2.453248444,6.629863129,7.107669525,,,,,,,,,1018.581009,1,Pullup,3
0.0,-0.22034728282093072,-0.35113872837671284,0.3404356135362787,0.1293839763391188,-0.008073552056623762,0.056079276151277224,6.41552684328,4.5987473556806,4.64560740972,0.7680287766074627,0.40847096494875623,-0.2381282507311542,0.3658021434054727,79.43597833995024,43.03359171269702,-41.6887105038806,33.042203761530494,1018.5856630000001,1,Pullup,3
2.0,-0.125298611702319,-0.15233531901295,-0.5855696582979,0.15864487166587998,-0.09643191618436,0.13801409828182,8.132207304752475,-1.3563206058960398,3.903727700991089,0.7093222721631841,0.18550713300379676,-0.5044380834606965,0.39361213603321393,89.47274784412936,-8.910106790353234,-55.77288424298508,59.92636523581095,1018.5943606666666,1,Pullup,3
4.0,-0.022784256163474,0.02675759860086,-0.07022279145379999,0.2266616663395,-0.38603721924719997,0.0912700427705,8.30819851232,1.23009999389296,2.5002237579296,0.7247276030771145,0.2922743956922388,-0.5134779332402984,0.24258580913826366,86.86143322482586,16.943316135802487,-57.82242924104477,29.64371334529901,1018.59436,1,Pullup,3
6.0,0.010114869122233998,0.07742264242531399,0.4952231915299,0.40328661217827,-0.3386612354351,0.09962700182760599,8.08791871019802,0.21572367740841586,2.531096952821782,0.6941579867597015,0.2625684351245274,-0.5238530798626866,0.27648196487405324,91.66101079308459,-0.8961379700248756,-54.3387454620398,48.34696767574278,1018.591385,1,Pullup,3
8.0,-0.03138163446634,0.06975843145128,0.2556557465235,0.09848809141209998,-0.26327839622797,-0.04900991588339999,7.77558359056,2.403114697204,2.5549544448531,0.7448844651681592,0.2895583941041293,-0.5123717023527363,0.14199976628299005,83.33555194179104,26.61500295261343,-53.80802546139303,10.910475892741292,1018.589439,1,Pullup,3
10.0,0.014581464636269999,-0.026417438143214,-0.0783406258638,0.1763405927734,-0.28154928604910007,-0.01227572932243001,8.22443630570396,2.1262793693401982,2.308656549727723,0.7391535399447761,0.27644909951606966,-0.5394156024641791,0.13467613377385074,84.38276272293533,23.9084283879204,-58.117859001393036,11.355982850114428,1018.5870745,1,Pullup,3
12.0,-0.032510224492068,-0.0446088812422,-0.37086608941930005,0.16398234461170003,-0.42573881034151,-0.011535957150700002,8.079923213349,1.12854966882169,2.2070045105241998,0.7200043344323382,0.2598709298614925,-0.5428452340452736,0.18981835244802428,87.45820908890548,13.46194639183582,-55.744102336517415,25.50903782235821,1018.585434,1,Pullup,3
14.0,-0.09533903238897,-0.0351774471882,-0.2008358285265,0.3439948426357,-0.20838283960404003,0.09777037055024,8.940973980702971,0.4500650749251485,1.9748462564069307,0.7150755197532338,0.2262321962259204,-0.5785311550199005,0.21814426519621394,88.56256484313433,7.559594349637811,-63.19905545721393,30.2409625630398,1018.583565,1,Pullup,3
16.0,-0.0078256547036,-0.010195312997279994,-0.0220731103327,0.25038253972027996,-0.21910545500845,-0.0010568469511599992,8.99247205816,-0.38522841342659997,1.554655078143,0.6915250559303482,0.2130943108738806,-0.5988456633562189,0.2578845849300224,92.26829579189055,-2.1626637249104474,-65.09675367850747,42.20705151319403,1018.5803985,1,Pullup,3
18.0,0.098908785411717,0.03100331433238999,0.43689343691386706,0.3053864787613,-0.21524151479137,0.11571740637269999,8.553032688643563,-0.7244296793139604,1.8040988521634653,0.6779823610587066,0.1969997745924967,-0.592474018939801,0.2688142817188408,94.35642584079602,-10.264554729915423,-59.1733566599005,50.41509724638806,1018.575859,1,Pullup,3
20.0,-0.009034253700820003,0.03090779940925,0.2652593518092,0.148257456807651,-0.4214941624806,-0.008889611111459998,8.16453476253,0.3025822769643601,1.6728238449007,0.6969714103781095,0.23685356152940795,-0.5687684336218906,0.22345868629809007,91.31182590726367,12.90361421014428,-57.10172226497512,26.988781550601992,1018.5700985000001,1,Pullup,3
22.0,0.020020646551870004,0.00725394838547,-0.002853270909800002,0.0975290427759,-0.23782227247315,-0.04492133951351999,8.465495910584158,1.4921030963174258,1.7083114095437624,0.7142374512975125,0.25874045243935323,-0.5752686328437812,0.15840948267312935,88.48295374338308,18.762891412175623,-61.32214631636816,16.841018294009952,1018.567047,1,Pullup,3
24.0,-0.10510599147042,-0.06981038915872,-0.5516871972864,0.16138993478855,-0.3538186144402,-0.004207763097299998,8.04283783277,0.6618890946004001,1.74572225189,0.6886019978472637,0.2390966530590995,-0.5748557946089552,0.1971503946665622,92.48346594751243,12.287086303701491,-55.300541082388065,25.649460338162687,1018.5616685,1,Pullup,3
26.0,-0.15320570621617,-0.03980753513177,-0.14716117173373003,0.23662756714383998,-0.3005936348466,0.005005194657570008,8.781691843425742,-0.8531308558188119,1.7711258358162376,0.696461596122388,0.1749423326090249,-0.600859074638806,0.24792115636451742,91.46466650079601,-7.1751960422711445,-62.657444423830846,43.17249158116069,1018.5574725,1,Pullup,3
28.0,0.05990115648122,-0.032538181566729996,0.15761842438632,0.21318233152656,-0.2003227972334,0.046845491516199995,8.86642966458,-1.00263002014,1.7593065032754,0.6863354279537314,0.17792024057393532,-0.6054843528771144,0.2709701618213383,93.03191280014926,-10.176676980586567,-64.00720247462687,48.415324194821395,1018.556442,1,Pullup,3
30.0,0.11266638160054,0.018003999390999996,0.5231685452718,0.2076399312328,-0.41051059526289996,-0.0141072848567,8.22839490549505,0.2296966007707921,1.9341798325316832,0.7028434940517412,0.20451620987556318,-0.5807537716467662,0.18705957566781095,90.36673609492537,6.603276049129354,-56.44868408781094,27.158293334393534,1018.555794,1,Pullup,3
32.0,-0.08189240257437999,-0.043878412375719995,-0.0054365463089,0.0776132099272,-0.1333159327209,-0.028335088126600006,8.69638477496,1.674202478094,1.7117039932806,0.7211918609442787,0.2626439336872637,-0.5751153515487561,0.1651182012612612,87.39108792253731,19.873369000573632,-63.69474344756219,16.4505473700398,1018.555527,1,Pullup,3
34.0,-0.04595773010509999,-0.057962251789900006,-0.1527421320614,0.07820650939510002,-0.26363092304986,0.0015927351256000105,8.539295414108912,1.6952959011336632,1.314587094115381,0.7074209145432836,0.26283786905661694,-0.5917480640064676,0.1389464941911443,89.77224559129353,25.699687484656717,-62.139233924825874,8.463114780263682,1018.555603,1,Pullup,3
36.0,-0.1300161651905,-0.15533669673475,-0.54928585165792,0.31409325182131,-0.3230263176684,0.03207465515323,8.55917111213,-0.854403758247,1.4797253951807,0.6720055470084577,0.20086060050538806,-0.5988802676502487,0.26393374698249256,95.36449043283582,-9.612512709736318,-59.460282700497515,49.59019606058209,1018.5541155000001,1,Pullup,3
38.0,0.14047191938089798,0.58108817686003,0.38392741456403995,0.17928702225414,-0.00011777898606999681,-0.017111341763799998,7.035452868762376,5.335679644643564,2.6586272967024156,0.7752447508597015,0.3737717850756219,-0.4486311652726368,0.06057200583948408,77.13286757303483,64.28375612238806,-45.191776653134326,-25.165194229537168,,1,Pullup,3
40.0,-0.19843948109649495,-0.12440901874363534,-0.07775256237384849,0.23242041831468688,0.03902175984229293,0.23712240509051513,3.2643173172101,5.42254575806,7.54736816709,0.857294711155,0.3288772897655,-0.0311541921966,0.364349643278,61.1066757091,36.0012047478,-18.236908849115,41.00603630555,1018.5187530000001,1,Pullup,3
42.0,-0.57788968841256,-0.2911687840255,0.2081231300412,0.037982659192099984,-0.049729735546699995,-0.12462147625177002,5.269761771036634,-1.4336237146673267,7.129389210316832,0.8452520232179104,0.04969168184229702,-0.30009835856676614,0.3885185176054726,63.87723567243781,-11.729997033549651,-32.32773189452737,53.91899524273632,1018.52005,1,Pullup,3
44.0,0.03345663981255,-0.12985290492394,-0.133558889461,-0.062270086833200004,-0.03928799124295,0.05678072513262,8.76151882795,0.41078177485734,2.37799543305005,0.7542264448243781,0.17706608829321444,-0.5723234222129353,0.19453225138298508,82.05544156412935,14.390325147711941,-65.71137093039802,16.866530355525374,1018.5187533333334,1,Pullup,3
46.0,0.05756421759949,-0.1402179946736,-0.3871057295251,0.13058049355110002,-0.40055945649842,0.09588683034632998,8.356943428663365,-1.95834344545,2.2596238602634653,0.7235609220134329,0.09047581510839553,-0.5867256602766169,0.25131041783484726,87.22700100373135,-12.522870436094529,-58.80236207651741,41.643562042482586,1018.5200505,1,Pullup,3
48.0,-0.06713293140222999,-0.05417369497399999,0.05697451517853001,0.24601117885925,-0.13528228974684,0.0896996078478,8.70042038275,-3.1636636276130004,2.3556948073835,0.7146963718393036,0.04191344964171493,-0.6035580071597015,0.30498665648318407,88.71981310039801,-33.146072833379606,-61.94727459995025,62.54636351960249,1018.5198594999999,1,Pullup,3
50.0,-0.056310009165360005,-0.0863096066322,0.03689320248000001,0.0539747179275,-0.3681549767661,0.06902360097193,8.823929257277227,-0.9463987852822772,1.5093306377136635,0.7109688161218906,0.12344120086059203,-0.6268010733333333,0.19409535191014426,89.24180038706467,-0.8885476049049755,-65.50745872383085,27.61568050913433,1018.519211,1,Pullup,3
52.0,0.005511546328088,0.07280419230401,0.39178056837009995,0.0656574665544,-0.2153405180289,0.0606858539114,8.78164148263,0.6543851990332,0.5356266586398,0.6928415436527363,0.15720452574123334,-0.6558309218293532,0.09892109676352537,92.27817478825871,25.576909036532335,-64.05129337646767,-4.09979283039801,1018.5202790000001,1,Pullup,3
54.0,-0.022010704249357,0.004511179689369995,-0.10624435736349998,-0.03676459645846,-0.1479015257942,0.013757424003500007,8.85072353870297,1.653547568745683,1.138717668018713,0.7236243576293532,0.15912761211054727,-0.6397445059119403,0.03229362317765423,87.24315166373134,28.62536075397015,-66.99796228810945,-12.749004457081593,1018.5199355,1,Pullup,3
56.0,-0.08812659184039,-0.038463085066520006,-0.202843219837,0.161988613618335,-0.35465654532240004,0.10251068795712001,8.93320580293,-0.13296699377280002,1.1263881637566,0.7051695161278607,0.12576774406686145,-0.6456662811348259,0.12460196333667663,90.21671280542289,9.791317112985075,-65.0585922740796,11.21514245900995,1018.519821,1,Pullup,3
58.0,-0.08200704667636,0.006795348176139997,-0.18202216933232,0.15453165952382,-0.35937784632229997,0.0047226045778499945,8.671319383742574,-2.267658143019109,1.625432766461505,0.7173832808711443,0.03175470688931542,-0.6287393459318408,0.19797081355563684,88.25539901373135,-22.568924809547262,-62.6283976320398,41.92666146392637,1018.51944,1,Pullup,3
60.0,0.029191471507220002,-0.0757764437744,0.07441806338160001,0.1707577648154,-0.1872633672356,0.0846562049273,8.9478184155,-2.1164203811773,1.5314787734956,0.7010976390069651,0.07207652441399402,-0.6384835812417909,0.2361046916108851,90.85535274402984,-21.08793711486219,-65.88560216437811,47.032743130823384,1018.5184859999999,1,Pullup,3
62.0,0.032206798739370004,0.009715223363540004,0.42215646452390004,0.17343281918919998,-0.34201932430026005,-0.03172105133217001,8.607073281237623,0.36098991164455446,1.4471164484188117,0.7235211831442787,0.11905987224616418,-0.6232060714487562,0.07619351726870648,87.26158638985073,7.698273781915422,-60.679331187562184,8.721514609810946,1018.5169599999999,1,Pullup,3
64.0,-0.06367420395795001,-0.010631036375449997,0.05206454548900001,0.02833474164669998,-0.1660618403527,-0.018399702465429994,8.971500668480001,0.971755224633,1.0555225296127,0.7213489888786069,0.1473162417832975,-0.6406742575840796,0.0769288795468587,87.63608717587064,18.254555673557213,-67.58936654850746,0.3780922097114428,1018.5145185,1,Pullup,3
66.0,-0.042711976298,-0.018340113506580005,-0.1978070065646,0.024947052015800004,-0.23009935168784398,0.027300451645618992,9.047487139029704,0.8043960617061386,0.8278601391536238,0.7130361187263682,0.09409913847239801,-0.6643559398208956,0.024695181369751247,89.01833226149253,27.746889623797014,-68.67980522925373,-17.898673716676615,1018.513031,1,Pullup,3
68.0,-0.10360860629863,-0.08697212407572201,-0.43920358456024,0.33713683049733,-0.21645830741549002,0.03991830720782,8.84610942078,0.17811909948579996,1.3370495910668299,0.711822563335821,0.11178754598373133,-0.6354622203985075,0.08638187856875124,89.1979947421393,0.157997063233831,-62.245842044129354,16.404042500845772,1018.512039,1,Pullup,3
70.0,0.12189398528558999,0.0401289441703,0.4969843747148,0.24236398393160002,-0.29088823698778,-0.039435112678000005,8.497069856148514,0.15751254998217823,1.4435342936005942,0.7125943707427861,0.11832795170040299,-0.6234358695303482,0.0908609524323433,88.99276252482588,-1.8243813784925373,-59.088684682985075,19.440631524154227,1018.512306,1,Pullup,3
72.0,-0.05256571761151999,0.17145218830376,0.26606182238145,0.021752080737700005,-0.11433876160289998,-0.0361241823359,8.93592415016,-0.39449264830049996,1.1711061722,0.716659393861194,0.07979802363914926,-0.6462082280656717,0.11618921527420498,88.36948748557214,1.2921328463189057,-68.54041665905473,15.074287689089553,1018.513184,1,Pullup,3
74.0,-0.06755078465971,-0.06716501480007,-0.17405238730445,-0.0679958499818,-0.23969483377125,0.048797332682190005,8.851538675188118,-1.1027908929693069,0.5684777454276237,0.6893572167661691,0.07275691671140547,-0.6723376745512438,0.14532109442169702,92.79325448248757,6.90420032102189,-68.69053168323383,11.309637944497512,1018.5138320000001,1,Pullup,3
76.0,0.009507577321270002,-0.16486094171583,-0.41838216411101004,0.1513288763631,-0.2772225737394,0.040165862969618014,8.45534851219,-2.490667630011,1.4673700881804002,0.7041110640278606,0.030782257579960202,-0.6297828848064676,0.2204602041690199,90.44433486278608,-20.226932340666664,-60.30881573104478,41.51094012235324,1018.5142895,1,Pullup,3
78.0,-0.00701283351983,-0.022927267508800003,0.24422358761891,0.2384742757293,-0.19327930007596003,0.1040234430841,8.863202538673267,-1.879107721978812,1.202725157785,0.7084733733014925,0.04370040876393582,-0.6417557070263682,0.18494978799546766,89.76602915696516,-20.171025491144277,-64.097057820398,39.31105727643284,1018.5124585,1,Pullup,3
80.0,0.15218137599691,0.55260463222017,-0.19062313865657998,-0.0827418495463,-0.015443484689699995,0.021459762749900007,7.8808402084199995,5.070070733665,1.3070669403298998,0.7397387457880598,0.32217039992935326,-0.553027262781592,-0.00841888971185224,84.26382739353234,76.67542301358209,-55.79484151278607,-49.03280537402139,1018.506813,1,Pullup,3
82.0,-0.030258482597212,0.20041997941560002,0.18085643992582,0.1992031065608,-0.24494264328919801,-0.08158232621594401,6.824753396801981,1.057478190509703,6.737259598544554,0.7885275601402985,0.25402599357213934,-0.2822922297368159,0.4713053102014925,75.69868899084577,12.140369604860698,-43.22990160019901,55.995997413134326,1018.442154,1,Pullup,3
84.0,0.011724180131118879,-0.10428004807186735,-0.18859622553880512,0.12167151692609388,-0.00804105555452143,0.07687961501911225,2.9589897491070003,0.922009172084,9.2756546768,0.8490588669265,0.11576277366725,-0.1051062191474,0.495731759493,63.6228135656,5.870979217824999,-17.12738299752,59.5755909823,1018.442688,1,Pullup,3
86.0,-0.15946109001581601,-0.24124846686346998,0.12250842451819001,-0.046132480598449994,-0.03778568000589001,-0.13866063226130002,4.139534862247525,1.1703909120188118,8.316773497435644,0.910172054477612,0.13431339119855323,-0.19246510091651742,0.3176422031268657,48.420868580398015,7.364654126053732,-25.889368371094527,37.46227096407961,1018.4444045,1,Pullup,3
88.0,-0.11371348326585,-0.16546168496124,-0.53430643212538,0.08390150738875,-0.32310625839668,0.31926917496511,7.13573017277,-2.4357079192840003,4.812107670537,0.7897871406731343,0.010507664246064677,-0.4905681179552239,0.25566826278366667,75.55197842955224,-13.755799236045771,-47.640858834179106,37.33952657274129,1018.4583283333333,1,Pullup,3
90.0,0.015529364959440002,-0.09284900436437699,-0.042602978966,0.10413184734260002,-0.38732208787601996,0.05070435854681,8.46808656291089,-1.565077088598218,2.5844469021334655,0.7558067063094527,0.05667479474710149,-0.5812641384985074,0.18520264219067709,81.69942907542288,-11.232247695114427,-60.174819001044774,31.647662198537315,1018.462677,1,Pullup,3
92.0,-0.00926895716715,-0.029406926281600004,0.431328913019531,0.1613788309071,-0.3169002274274,0.1523182705975,8.097079037570001,-1.070422544866,2.71749992979,0.7537504853940298,0.0743757776928607,-0.5699462875865672,0.16364305666306964,82.0484014079602,-6.915770138064677,-55.713809513283586,27.242601573970152,1018.464279,1,Pullup,3
94.0,-0.06230108866919,0.108031349266873,0.19959755968460002,-0.001984071381279997,-0.2705740223586,0.006035203619520005,8.532334147257426,0.19224626141792073,2.2187899628764356,0.7566360538636816,0.11971103282408956,-0.590077760761194,0.11190860971109601,81.58915189303482,10.97546359683582,-62.200642350199004,8.49577761739801,1018.464279,1,Pullup,3
96.0,0.041790357188567995,-0.08954028652141,-0.2961057963388,-0.019449967639050006,-0.2436886024746,-0.0676686850858,8.33059643564,2.0642194335789,2.798282441707,0.7898513263358208,0.1804545517526816,-0.5513707282840796,0.04546966767488657,75.51073954039802,26.33395494308806,-60.04922484208955,-7.246581734754726,1018.4645845,1,Pullup,3
98.0,-0.10242948169297,-0.073305395260842,-0.17895732023775998,0.18878733269476,-0.16917520896205,0.176780806986684,8.906821239277228,-2.7582621840487125,1.7012226852656436,0.7027986081278607,0.03452862027855075,-0.6417473864328358,0.2486494227145607,90.56995787348258,-33.19288979744776,-65.46043046253732,57.042940286776115,1018.46653,1,Pullup,3
100.0,0.04061947183945,-0.008562541829299993,0.27111672222865,0.19007800030829997,-0.18786149185220002,0.0742539845163,8.59607536944,-3.6650684509410003,1.71420379487478,0.7205085354288557,-0.045886991404221394,-0.6267997357985075,0.2311034663599801,87.78621362099503,-42.247868106940295,-61.75819279800995,57.7946564859005,1018.468704,1,Pullup,3
102.0,-0.06304665345592,0.014685682865950001,0.11515261227509999,0.03994907780943,-0.29322304173086,0.08208892021483001,8.657121185990098,-3.141401580217822,1.6445499427906929,0.7273402979084577,-0.026315553133079605,-0.6293659856915423,0.20531128818189057,86.62050727810944,-34.83537172505025,-64.88815609024876,49.72450060006169,1018.472023,1,Pullup,3
104.0,0.01087767971898,0.074763953027,0.13312186420555,-0.043085571045499996,-0.29096764766669997,-0.0006247340674799928,8.45425279092,-2.2653786209196,1.89017037047489,0.7378759542631841,-0.015981493116706467,-0.620194997523383,0.15369893247202487,84.82781107721392,-18.178621979922887,-63.65006117283582,29.828428707791048,1018.473244,1,Pullup,3
106.0,0.015092963142690007,-0.051503436592799996,0.0515099890555,0.028743005939399977,-0.11232649727075998,0.012142681822519992,9.010011604366337,-0.7715608774415842,1.274762484118515,0.7204608853756219,0.07330531011882835,-0.6461465318955224,0.13610800721833582,87.73895875517412,-2.4938667341442784,-68.51124283975125,19.948133711179103,1018.473511,1,Pullup,3
108.0,-0.015393753169169995,-0.07430333902486,-0.35244383674380003,-0.08093737539219999,-0.3650718268543,-0.1261965969869,8.44258455508,-1.4486994141010001,1.8181820709223002,0.7315867487945273,0.048321902594840795,-0.616630007499005,0.15431719392420895,85.67301638308457,-8.988987152258707,-63.40281571467662,26.10839945938806,1018.472595,1,Pullup,3
110.0,-0.04873148708194,0.06563202196857999,-0.19141092430681003,0.22348313158269,-0.14080285848971,0.0885691079351,8.21613080469307,-4.013670361226732,2.1253086157900993,0.7112874522716418,-0.03621281521181343,-0.6110618871626866,0.2869603787616169,89.14984606223881,-48.415818335416915,-57.87374438751243,69.79426188273135,1018.472023,1,Pullup,3
112.0,0.037719735091145,-0.13780038509044001,0.31573220970404003,0.1449767185833,-0.37004357221405004,0.0564117818868,8.135763093629999,-3.568508747874,2.3055041793589997,0.719889086,-0.01691082022127363,-0.6033911813368159,0.2561856793040448,87.54140744358209,-38.889993494353234,-56.4978219117413,59.37551173259701,1018.4704975,1,Pullup,3
114.0,-0.06469269791209001,0.12131460849806,0.3191120658842,-0.0803364395304,-0.2613152261074,-0.1325142343035,8.524895655534653,-0.9414368264765346,1.6854327482964357,0.7348526907910448,0.06799724747785771,-0.6166833144034826,0.1420488914202229,85.25584851054725,2.7514024921517413,-64.68562197353234,14.932416831179106,1018.4697345,1,Pullup,3
116.0,-0.052620184877309996,-0.1272254883073,-0.4742663794737,-0.12156584122442,-0.2724772883386,-0.018242451114600003,8.687716300910001,-1.0386226730573,1.5007147476127,0.7257861458144279,0.056540715977587065,-0.6353992879746269,0.1397692374245781,86.7766291425373,1.8186503534328358,-67.56831241427861,14.679326356752238,1018.468704,1,Pullup,3
118.0,-0.10679974332923,0.092061610696165,-0.134744344121,0.2282244809359,-0.1939670802649,-0.002186480774139995,8.511986855950495,-3.5911139233356435,1.9668001171479208,0.7197412495353235,-0.047408717472379104,-0.6214821569830846,0.2336513253403731,87.81676678965174,-43.870412117858216,-60.960130878706465,59.79927014538856,1018.4675215,1,Pullup,3
120.0,0.13915248138487,-0.060447398580333,0.41892057767317,0.11015281295169002,-0.31351119479559,0.020218575357120006,8.43902046677,-2.14766341098187,2.0417137344195,0.738217537541791,-0.022022412129399007,-0.6133827995726369,0.13079840558706468,84.66864983189055,-15.912276889900498,-59.8226584719403,25.193613036218906,1018.467178,1,Pullup,3
122.0,-0.06700082390341,0.10430822329407999,0.1861521227032,-0.0607309768635,-0.12406344116149,-0.0649476028779,8.805898435871287,-0.5573489077940593,1.1885432630678217,0.7263700038024875,0.055846729532810946,-0.644300884597015,0.09732764636018906,86.81172315298508,3.1181536275870645,-67.92008796512438,9.635130486028357,1018.46859,1,Pullup,3
124.0,-0.12245754423877299,-0.17584848069238,-0.687520950431031,0.06684248081221,-0.2580379512858,0.024557398314000008,8.24324109188,-2.009708789057,1.3631133910869,0.7002667337547264,0.026833517142046764,-0.6318816553830846,0.18615968331646268,91.02265051094528,-9.313560067079601,-60.6259958520398,27.430921573303483,1018.469315,1,Pullup,3
126.0,0.3517709075162,0.5384414749651,0.1371869814563,0.17714293599640002,0.09135372817497,0.031207884096401295,8.082835222118812,5.031230571495049,1.9052261805813864,0.755628131478607,0.3471558803572139,-0.508787699159204,0.05803136015575622,81.53177787338308,72.93856366597015,-55.42066989905473,-37.062508317034826,1018.468246,1,Pullup,3
128.0,-0.018387001062431005,0.237015043834,0.26553587253582583,0.17653849180314998,-0.296727394656646,-0.04999330208793999,4.97984885102,0.31470856016614,8.27617111361,0.7593074745323384,0.1809620309402985,-0.18536138882935324,0.5860393745223881,81.17277694109453,5.188685647457512,-29.61399023761194,73.1460459979602,,1,Pullup,3
130.0,0.06525744559666667,0.09472725943133332,0.018114693773666667,0.20615196879999997,0.0022135243952333314,0.2540582066666667,4.088048859,0.5024551391333333,9.183003845666667,0.75948146128,0.14827706876,-0.1473412765,0.61602905474,81.16298718,2.7411403652,-23.984668042000003,77.509910876,,1,Pullup,3
